PE UV                   SPECTRUM    ASCII       PEDS        1.60        
  -1
X-2-100.SP
08/01/10
04:19:33.00
08/01/10
06:54:35.00


190.000000
1









4444

SCAN
1
1


0.0
120.0
1.00
MANUAL



UV/VIS




































#HDR
-1
-1
#GR
NM
%T
0.00002384185791015625
0.0
1100.000000
1.000000
911
8
50.526000
-5.801000
#DATA
1100.000000	33.082000 
1099.000000	32.997000 
1098.000000	33.008000 
1097.000000	32.917000 
1096.000000	32.945000 
1095.000000	32.966000 
1094.000000	32.846000 
1093.000000	32.824000 
1092.000000	32.755000 
1091.000000	32.735000 
1090.000000	32.632000 
1089.000000	32.661000 
1088.000000	32.630000 
1087.000000	32.604000 
1086.000000	32.538000 
1085.000000	32.576000 
1084.000000	32.461000 
1083.000000	32.425000 
1082.000000	32.443000 
1081.000000	32.365000 
1080.000000	32.337000 
1079.000000	32.335000 
1078.000000	32.267000 
1077.000000	32.286000 
1076.000000	32.278000 
1075.000000	32.241000 
1074.000000	32.182000 
1073.000000	32.202000 
1072.000000	32.098000 
1071.000000	32.079000 
1070.000000	32.088000 
1069.000000	32.043000 
1068.000000	32.054000 
1067.000000	32.014000 
1066.000000	32.022000 
1065.000000	32.012000 
1064.000000	32.017000 
1063.000000	31.911000 
1062.000000	31.921000 
1061.000000	31.879000 
1060.000000	31.860000 
1059.000000	31.845000 
1058.000000	31.822000 
1057.000000	31.785000 
1056.000000	31.790000 
1055.000000	31.747000 
1054.000000	31.746000 
1053.000000	31.733000 
1052.000000	31.744000 
1051.000000	31.703000 
1050.000000	31.714000 
1049.000000	31.711000 
1048.000000	31.656000 
1047.000000	31.659000 
1046.000000	31.656000 
1045.000000	31.660000 
1044.000000	31.625000 
1043.000000	31.599000 
1042.000000	31.611000 
1041.000000	31.598000 
1040.000000	31.613000 
1039.000000	31.589000 
1038.000000	31.593000 
1037.000000	31.516000 
1036.000000	31.595000 
1035.000000	31.574000 
1034.000000	31.543000 
1033.000000	31.556000 
1032.000000	31.566000 
1031.000000	31.548000 
1030.000000	31.551000 
1029.000000	31.555000 
1028.000000	31.514000 
1027.000000	31.577000 
1026.000000	31.543000 
1025.000000	31.527000 
1024.000000	31.522000 
1023.000000	31.551000 
1022.000000	31.556000 
1021.000000	31.523000 
1020.000000	31.530000 
1019.000000	31.563000 
1018.000000	31.588000 
1017.000000	31.519000 
1016.000000	31.604000 
1015.000000	31.486000 
1014.000000	31.606000 
1013.000000	31.559000 
1012.000000	31.621000 
1011.000000	31.617000 
1010.000000	31.619000 
1009.000000	31.636000 
1008.000000	31.657000 
1007.000000	31.676000 
1006.000000	31.680000 
1005.000000	31.698000 
1004.000000	31.720000 
1003.000000	31.733000 
1002.000000	31.731000 
1001.000000	31.749000 
1000.000000	31.797000 
999.000000	 31.789000 
998.000000	 31.799000 
997.000000	 31.836000 
996.000000	 31.867000 
995.000000	 31.900000 
994.000000	 31.899000 
993.000000	 31.915000 
992.000000	 31.955000 
991.000000	 31.988000 
990.000000	 31.975000 
989.000000	 32.015000 
988.000000	 32.065000 
987.000000	 32.082000 
986.000000	 32.101000 
985.000000	 32.115000 
984.000000	 32.151000 
983.000000	 32.190000 
982.000000	 32.235000 
981.000000	 32.227000 
980.000000	 32.261000 
979.000000	 32.319000 
978.000000	 32.359000 
977.000000	 32.394000 
976.000000	 32.406000 
975.000000	 32.442000 
974.000000	 32.491000 
973.000000	 32.532000 
972.000000	 32.543000 
971.000000	 32.591000 
970.000000	 32.645000 
969.000000	 32.683000 
968.000000	 32.713000 
967.000000	 32.758000 
966.000000	 32.789000 
965.000000	 32.835000 
964.000000	 32.910000 
963.000000	 32.956000 
962.000000	 32.987000 
961.000000	 33.013000 
960.000000	 33.063000 
959.000000	 33.098000 
958.000000	 33.177000 
957.000000	 33.243000 
956.000000	 33.276000 
955.000000	 33.323000 
954.000000	 33.358000 
953.000000	 33.421000 
952.000000	 33.497000 
951.000000	 33.550999 
950.000000	 33.584000 
949.000000	 33.607000 
948.000000	 33.680000 
947.000000	 33.758000 
946.000000	 33.797000 
945.000000	 33.850000 
944.000000	 33.907000 
943.000000	 33.949000 
942.000000	 34.011000 
941.000000	 34.090000 
940.000000	 34.140000 
939.000000	 34.205000 
938.000000	 34.262000 
937.000000	 34.328000 
936.000000	 34.366000 
935.000000	 34.443000 
934.000000	 34.516000 
933.000000	 34.596000 
932.000000	 34.651000 
931.000000	 34.717000 
930.000000	 34.779000 
929.000000	 34.820000 
928.000000	 34.902000 
927.000000	 34.983000 
926.000000	 35.056000 
925.000000	 35.126000 
924.000000	 35.198000 
923.000000	 35.258000 
922.000000	 35.311000 
921.000000	 35.392000 
920.000000	 35.455000 
919.000000	 35.522000 
918.000000	 35.600000 
917.000000	 35.685000 
916.000000	 35.745000 
915.000000	 35.819000 
914.000000	 35.901000 
913.000000	 35.957000 
912.000000	 36.034000 
911.000000	 36.094000 
910.000000	 36.153000 
909.000000	 36.231000 
908.000000	 36.303000 
907.000000	 36.377000 
906.000000	 36.473000 
905.000000	 36.544000 
904.000000	 36.628000 
903.000000	 36.720000 
902.000000	 36.795000 
901.000000	 36.860000 
900.000000	 36.928000 
899.000000	 36.995000 
898.000000	 37.051000 
897.000000	 37.106000 
896.000000	 37.188000 
895.000000	 37.254000 
894.000000	 37.340000 
893.000000	 37.404000 
892.000000	 37.471000 
891.000000	 37.547999 
890.000000	 37.608000 
889.000000	 37.679000 
888.000000	 37.758000 
887.000000	 37.823000 
886.000000	 37.900000 
885.000000	 37.960000 
884.000000	 38.023000 
883.000000	 38.079000 
882.000000	 38.144000 
881.000000	 38.217000 
880.000000	 38.251000 
879.000000	 38.319000 
878.000000	 38.382000 
877.000000	 38.433000 
876.000000	 38.497000 
875.000000	 38.562000 
874.000000	 38.621000 
873.000000	 38.670000 
872.000000	 38.741000 
871.000000	 38.793000 
870.000000	 38.844000 
869.000000	 38.903000 
868.000000	 38.945000 
867.000000	 38.990000 
866.000000	 39.038000 
865.000000	 39.066000 
864.000000	 39.110000 
863.000000	 39.156000 
862.000000	 39.202000 
861.000000	 39.224000 
860.000000	 39.268000 
859.000000	 39.310000 
858.000000	 39.337000 
857.000000	 39.380000 
856.000000	 39.413000 
855.000000	 39.416000 
854.000000	 39.459000 
853.000000	 39.475000 
852.000000	 39.494000 
851.000000	 39.520000 
850.000000	 39.523000 
849.000000	 39.541000 
848.000000	 39.558000 
847.000000	 39.565000 
846.000000	 39.561000 
845.000000	 39.568000 
844.000000	 39.565000 
843.000000	 39.570000 
842.000000	 39.574000 
841.000000	 39.573000 
840.000000	 39.572000 
839.000000	 39.558000 
838.000000	 39.546000 
837.000000	 39.541000 
836.000000	 39.529000 
835.000000	 39.512000 
834.000000	 39.480000 
833.000000	 39.464000 
832.000000	 39.431000 
831.000000	 39.396000 
830.000000	 39.371000 
829.000000	 39.355000 
828.000000	 39.312000 
827.000000	 39.260000 
826.000000	 39.231000 
825.000000	 39.192000 
824.000000	 39.130000 
823.000000	 39.095000 
822.000000	 39.035000 
821.000000	 38.990000 
820.000000	 38.935000 
819.000000	 38.880000 
818.000000	 38.824000 
817.000000	 38.765000 
816.000000	 38.705000 
815.000000	 38.628000 
814.000000	 38.544000 
813.000000	 38.473000 
812.000000	 38.416000 
811.000000	 38.337000 
810.000000	 38.249000 
809.000000	 38.173000 
808.000000	 38.080000 
807.000000	 38.006000 
806.000000	 37.917000 
805.000000	 37.823000 
804.000000	 37.740000 
803.000000	 37.641000 
802.000000	 37.533000 
801.000000	 37.454000 
800.000000	 37.349000 
799.000000	 37.260000 
798.000000	 37.161000 
797.000000	 37.030000 
796.000000	 36.941000 
795.000000	 36.802000 
794.000000	 36.700000 
793.000000	 36.599000 
792.000000	 36.488000 
791.000000	 36.360000 
790.000000	 36.236000 
789.000000	 36.118000 
788.000000	 35.999000 
787.000000	 35.872000 
786.000000	 35.762000 
785.000000	 35.652000 
784.000000	 35.539000 
783.000000	 35.414000 
782.000000	 35.305000 
781.000000	 35.172000 
780.000000	 35.068000 
779.000000	 34.936000 
778.000000	 34.806000 
777.000000	 34.690000 
776.000000	 34.557000 
775.000000	 34.460000 
774.000000	 34.332000 
773.000000	 34.204000 
772.000000	 34.098000 
771.000000	 33.953000 
770.000000	 33.836000 
769.000000	 33.707000 
768.000000	 33.583000 
767.000000	 33.454000 
766.000000	 33.314000 
765.000000	 33.181000 
764.000000	 33.046000 
763.000000	 32.908000 
762.000000	 32.788000 
761.000000	 32.648000 
760.000000	 32.515000 
759.000000	 32.391000 
758.000000	 32.265000 
757.000000	 32.133000 
756.000000	 32.004000 
755.000000	 31.881000 
754.000000	 31.749000 
753.000000	 31.622000 
752.000000	 31.507000 
751.000000	 31.372000 
750.000000	 31.256000 
749.000000	 31.130000 
748.000000	 31.000000 
747.000000	 30.883000 
746.000000	 30.762000 
745.000000	 30.643000 
744.000000	 30.518000 
743.000000	 30.404000 
742.000000	 30.292000 
741.000000	 30.183000 
740.000000	 30.067000 
739.000000	 29.959000 
738.000000	 29.848000 
737.000000	 29.736000 
736.000000	 29.622000 
735.000000	 29.511000 
734.000000	 29.408000 
733.000000	 29.310000 
732.000000	 29.206000 
731.000000	 29.109000 
730.000000	 29.001000 
729.000000	 28.901000 
728.000000	 28.801000 
727.000000	 28.697000 
726.000000	 28.602000 
725.000000	 28.504000 
724.000000	 28.413000 
723.000000	 28.317000 
722.000000	 28.230000 
721.000000	 28.130000 
720.000000	 28.054000 
719.000000	 27.961000 
718.000000	 27.869000 
717.000000	 27.792000 
716.000000	 27.713000 
715.000000	 27.623000 
714.000000	 27.550000 
713.000000	 27.465000 
712.000000	 27.394000 
711.000000	 27.329000 
710.000000	 27.253000 
709.000000	 27.176000 
708.000000	 27.108000 
707.000000	 27.038000 
706.000000	 26.973000 
705.000000	 26.902000 
704.000000	 26.839000 
703.000000	 26.780000 
702.000000	 26.715000 
701.000000	 26.659000 
700.000000	 26.600000 
699.000000	 26.546000 
698.000000	 26.482000 
697.000000	 26.433000 
696.000000	 26.381000 
695.000000	 26.337000 
694.000000	 26.278000 
693.000000	 26.238000 
692.000000	 26.189000 
691.000000	 26.145000 
690.000000	 26.098000 
689.000000	 26.060000 
688.000000	 26.018000 
687.000000	 25.980000 
686.000000	 25.944000 
685.000000	 25.907000 
684.000000	 25.854000 
683.000000	 25.828000 
682.000000	 25.790000 
681.000000	 25.759000 
680.000000	 25.735000 
679.000000	 25.706000 
678.000000	 25.673000 
677.000000	 25.654000 
676.000000	 25.630000 
675.000000	 25.604000 
674.000000	 25.573000 
673.000000	 25.554000 
672.000000	 25.535000 
671.000000	 25.520000 
670.000000	 25.487000 
669.000000	 25.477000 
668.000000	 25.451000 
667.000000	 25.444000 
666.000000	 25.427000 
665.000000	 25.404000 
664.000000	 25.385000 
663.000000	 25.367000 
662.000000	 25.362000 
661.000000	 25.344000 
660.000000	 25.323000 
659.000000	 25.313000 
658.000000	 25.307000 
657.000000	 25.292000 
656.000000	 25.269000 
655.000000	 25.257000 
654.000000	 25.249000 
653.000000	 25.231000 
652.000000	 25.219000 
651.000000	 25.210000 
650.000000	 25.196000 
649.000000	 25.180000 
648.000000	 25.165000 
647.000000	 25.149000 
646.000000	 25.142000 
645.000000	 25.120000 
644.000000	 25.094000 
643.000000	 25.078000 
642.000000	 25.058000 
641.000000	 25.040000 
640.000000	 25.011000 
639.000000	 25.000000 
638.000000	 24.979000 
637.000000	 24.949000 
636.000000	 24.928000 
635.000000	 24.899000 
634.000000	 24.871000 
633.000000	 24.845000 
632.000000	 24.807000 
631.000000	 24.767000 
630.000000	 24.724000 
629.000000	 24.697000 
628.000000	 24.665000 
627.000000	 24.619000 
626.000000	 24.571000 
625.000000	 24.537000 
624.000000	 24.479000 
623.000000	 24.430000 
622.000000	 24.376000 
621.000000	 24.330000 
620.000000	 24.271000 
619.000000	 24.213000 
618.000000	 24.152000 
617.000000	 24.089000 
616.000000	 24.029000 
615.000000	 23.958000 
614.000000	 23.880000 
613.000000	 23.809000 
612.000000	 23.735000 
611.000000	 23.655000 
610.000000	 23.572000 
609.000000	 23.486000 
608.000000	 23.411000 
607.000000	 23.318000 
606.000000	 23.228000 
605.000000	 23.138000 
604.000000	 23.040000 
603.000000	 22.936000 
602.000000	 22.837000 
601.000000	 22.733000 
600.000000	 22.620000 
599.000000	 22.520000 
598.000000	 22.411000 
597.000000	 22.296000 
596.000000	 22.186000 
595.000000	 22.070000 
594.000000	 21.954000 
593.000000	 21.824000 
592.000000	 21.707000 
591.000000	 21.579000 
590.000000	 21.449000 
589.000000	 21.326000 
588.000000	 21.197000 
587.000000	 21.077000 
586.000000	 20.944000 
585.000000	 20.813000 
584.000000	 20.681000 
583.000000	 20.551000 
582.000000	 20.407000 
581.000000	 20.272000 
580.000000	 20.135000 
579.000000	 19.996000 
578.000000	 19.856000 
577.000000	 19.719000 
576.000000	 19.581000 
575.000000	 19.437000 
574.000000	 19.308000 
573.000000	 19.163000 
572.000000	 19.023000 
571.000000	 18.889000 
570.000000	 18.749000 
569.000000	 18.614000 
568.000000	 18.472000 
567.000000	 18.332000 
566.000000	 18.198000 
565.000000	 18.064000 
564.000000	 17.921000 
563.000000	 17.787000 
562.000000	 17.650000 
561.000000	 17.525000 
560.000000	 17.386000 
559.000000	 17.238000 
558.000000	 17.101000 
557.000000	 16.971000 
556.000000	 16.843000 
555.000000	 16.714000 
554.000000	 16.587000 
553.000000	 16.457000 
552.000000	 16.320000 
551.000000	 16.194000 
550.000000	 16.066000 
549.000000	 15.940000 
548.000000	 15.812000 
547.000000	 15.687000 
546.000000	 15.566000 
545.000000	 15.446000 
544.000000	 15.331000 
543.000000	 15.203000 
542.000000	 15.089000 
541.000000	 14.972000 
540.000000	 14.854000 
539.000000	 14.738000 
538.000000	 14.622000 
537.000000	 14.505000 
536.000000	 14.397000 
535.000000	 14.284000 
534.000000	 14.176000 
533.000000	 14.066000 
532.000000	 13.958000 
531.000000	 13.855000 
530.000000	 13.748000 
529.000000	 13.640000 
528.000000	 13.537000 
527.000000	 13.434000 
526.000000	 13.330000 
525.000000	 13.232000 
524.000000	 13.130000 
523.000000	 13.026000 
522.000000	 12.926000 
521.000000	 12.829000 
520.000000	 12.724000 
519.000000	 12.631000 
518.000000	 12.531000 
517.000000	 12.429000 
516.000000	 12.333000 
515.000000	 12.239000 
514.000000	 12.147000 
513.000000	 12.049000 
512.000000	 11.953000 
511.000000	 11.862000 
510.000000	 11.763000 
509.000000	 11.669000 
508.000000	 11.576000 
507.000000	 11.478000 
506.000000	 11.387000 
505.000000	 11.298000 
504.000000	 11.204000 
503.000000	 11.115000 
502.000000	 11.024000 
501.000000	 10.932000 
500.000000	 10.840000 
499.000000	 10.742000 
498.000000	 10.653000 
497.000000	 10.559000 
496.000000	 10.471000 
495.000000	 10.374000 
494.000000	 10.284000 
493.000000	 10.189000 
492.000000	 10.098000 
491.000000	 10.005000 
490.000000	 9.908999  
489.000000	 9.818000  
488.000000	 9.722000  
487.000000	 9.625000  
486.000000	 9.532999  
485.000000	 9.440000  
484.000000	 9.345000  
483.000000	 9.253000  
482.000000	 9.160000  
481.000000	 9.071999  
480.000000	 8.973000  
479.000000	 8.881000  
478.000000	 8.786000  
477.000000	 8.690000  
476.000000	 8.595000  
475.000000	 8.510000  
474.000000	 8.416000  
473.000000	 8.326000  
472.000000	 8.239000  
471.000000	 8.143000  
470.000000	 8.057000  
469.000000	 7.964000  
468.000000	 7.875999  
467.000000	 7.784000  
466.000000	 7.697000  
465.000000	 7.605000  
464.000000	 7.519000  
463.000000	 7.430000  
462.000000	 7.345000  
461.000000	 7.253000  
460.000000	 7.169000  
459.000000	 7.081000  
458.000000	 6.999000  
457.000000	 6.909999  
456.000000	 6.834000  
455.000000	 6.749000  
454.000000	 6.665999  
453.000000	 6.584000  
452.000000	 6.507000  
451.000000	 6.432000  
450.000000	 6.351999  
449.000000	 6.273000  
448.000000	 6.196000  
447.000000	 6.123000  
446.000000	 6.044000  
445.000000	 5.970000  
444.000000	 5.899000  
443.000000	 5.823000  
442.000000	 5.760000  
441.000000	 5.694000  
440.000000	 5.621000  
439.000000	 5.556000  
438.000000	 5.486000  
437.000000	 5.423000  
436.000000	 5.357000  
435.000000	 5.294000  
434.000000	 5.229000  
433.000000	 5.171000  
432.000000	 5.110000  
431.000000	 5.044000  
430.000000	 4.987000  
429.000000	 4.933000  
428.000000	 4.873000  
427.000000	 4.816000  
426.000000	 4.760000  
425.000000	 4.704000  
424.000000	 4.654000  
423.000000	 4.603000  
422.000000	 4.553000  
421.000000	 4.578000  
420.000000	 4.528000  
419.000000	 4.480000  
418.000000	 4.428000  
417.000000	 4.382000  
416.000000	 4.335000  
415.000000	 4.290999  
414.000000	 4.242000  
413.000000	 4.198000  
412.000000	 4.154000  
411.000000	 4.111000  
410.000000	 4.069000  
409.000000	 4.027000  
408.000000	 3.982000  
407.000000	 3.938000  
406.000000	 3.899000  
405.000000	 3.855000  
404.000000	 3.817000  
403.000000	 3.775000  
402.000000	 3.737000  
401.000000	 3.695000  
400.000000	 3.657000  
399.000000	 3.615000  
398.000000	 3.575000  
397.000000	 3.538000  
396.000000	 3.499000  
395.000000	 3.457000  
394.000000	 3.417000  
393.000000	 3.381000  
392.000000	 3.339000  
391.000000	 3.305000  
390.000000	 3.269000  
389.000000	 3.226000  
388.000000	 3.188000  
387.000000	 3.150000  
386.000000	 3.115000  
385.000000	 3.075000  
384.000000	 3.035000  
383.000000	 2.726000  
382.000000	 2.736000  
381.000000	 2.747000  
380.000000	 2.762000  
379.000000	 2.576000  
378.000000	 2.536000  
377.000000	 2.570000  
376.000000	 2.504000  
375.000000	 2.480000  
374.000000	 2.387000  
373.000000	 2.414000  
372.000000	 2.330000  
371.000000	 2.257000  
370.000000	 2.237000  
369.000000	 2.214000  
368.000000	 2.082000  
367.000000	 2.086000  
366.000000	 2.030000  
365.000000	 2.007000  
364.000000	 1.947000  
363.000000	 1.869000  
362.000000	 1.820000  
361.000000	 1.686000  
360.000000	 1.707000  
359.000000	 1.674000  
358.000000	 1.576000  
357.000000	 1.548000  
356.000000	 1.543000  
355.000000	 1.515000  
354.000000	 1.470000  
353.000000	 1.365000  
352.000000	 1.269000  
351.000000	 1.316000  
350.000000	 1.234000  
349.000000	 1.218000  
348.000000	 1.169000  
347.000000	 1.109000  
346.000000	 1.129000  
345.000000	 1.052000  
344.000000	 1.023000  
343.000000	 1.046000  
342.000000	 0.966000  
341.000000	 1.006000  
340.000000	 0.795000  
339.000000	 0.851000  
338.000000	 0.768000  
337.000000	 0.826000  
336.000000	 0.867000  
335.000000	 0.832000  
334.000000	 0.726000  
333.000000	 0.895000  
332.000000	 0.569000  
331.000000	 0.615000  
330.000000	 0.574000  
329.000000	 0.604000  
328.000000	 0.473000  
327.000000	 0.508000  
326.000000	 0.559000  
325.000000	 0.471000  
324.000000	 0.472000  
323.000000	 0.455000  
322.000000	 0.465000  
321.000000	 0.380000  
320.000000	 0.409000  
319.000000	 0.373000  
318.000000	 0.381000  
317.000000	 0.334000  
316.000000	 0.279000  
315.000000	 0.331000  
314.000000	 0.346000  
313.000000	 0.294000  
312.000000	 0.274000  
311.000000	 0.185000  
310.000000	 0.283000  
309.000000	 0.287000  
308.000000	 0.200000  
307.000000	 0.178000  
306.000000	 0.363000  
305.000000	 0.260000  
304.000000	 0.363000  
303.000000	 0.344000  
302.000000	 0.336000  
301.000000	 0.054000  
300.000000	 0.618000  
299.000000	 0.244000  
298.000000	 0.976999  
297.000000	 1.201000  
296.000000	 1.793000  
295.000000	 1.297000  
294.000000	 0.838000  
293.000000	 1.766000  
292.000000	 1.226000  
291.000000	 3.238000  
290.000000	 2.369000  
289.000000	 2.148000  
288.000000	 7.829999  
287.000000	 9.398000  
286.000000	 11.702000 
285.000000	 12.597000 
284.000000	 9.449000  
283.000000	 13.071000 
282.000000	 13.025000 
281.000000	 2.601000  
280.000000	 14.888000 
279.000000	 15.484000 
278.000000	 27.240000 
277.000000	 14.235000 
276.000000	 19.671000 
275.000000	 10.423000 
274.000000	 11.348000 
273.000000	 11.216000 
272.000000	 8.302000  
271.000000	 16.080000 
270.000000	 24.992000 
269.000000	 26.390000 
268.000000	 27.967000 
267.000000	 34.831000 
266.000000	 13.651000 
265.000000	 8.685000  
264.000000	 18.536000 
263.000000	 16.065000 
262.000000	 22.173000 
261.000000	 15.150000 
260.000000	 14.317000 
259.000000	 13.945000 
258.000000	 13.306000 
257.000000	 11.213000 
256.000000	 12.026000 
255.000000	 2.422000  
254.000000	 11.419000 
253.000000	 17.524000 
252.000000	 2.936000  
251.000000	 24.232000 
250.000000	 -1.060000 
249.000000	 10.196000 
248.000000	 16.250000 
247.000000	 26.614000 
246.000000	 50.526000 
245.000000	 17.749000 
244.000000	 16.714000 
243.000000	 10.124000 
242.000000	 10.408000 
241.000000	 20.885000 
240.000000	 9.276000  
239.000000	 7.913000  
238.000000	 21.830000 
237.000000	 11.167000 
236.000000	 29.542000 
235.000000	 17.461000 
234.000000	 33.826000 
233.000000	 28.338000 
232.000000	 30.075000 
231.000000	 18.728000 
230.000000	 5.435000  
229.000000	 29.679000 
228.000000	 9.107999  
227.000000	 22.400000 
226.000000	 28.186000 
225.000000	 18.085000 
224.000000	 22.989000 
223.000000	 27.244000 
222.000000	 19.392000 
221.000000	 8.552999  
220.000000	 20.739000 
219.000000	 25.515000 
218.000000	 22.718000 
217.000000	 12.551000 
216.000000	 18.857000 
215.000000	 25.665000 
214.000000	 25.114000 
213.000000	 25.323000 
212.000000	 27.083000 
211.000000	 30.343000 
210.000000	 16.412000 
209.000000	 25.940000 
208.000000	 21.544000 
207.000000	 30.545000 
206.000000	 26.779000 
205.000000	 24.885000 
204.000000	 12.269000 
203.000000	 16.305000 
202.000000	 27.792000 
201.000000	 31.670000 
200.000000	 27.342000 
199.000000	 11.267000 
198.000000	 26.753000 
197.000000	 29.225000 
196.000000	 18.163000 
195.000000	 16.817000 
194.000000	 20.468000 
193.000000	 9.722999  
192.000000	 -5.801000 
191.000000	 18.092000 
190.000000	 17.106000 

